<!--This xml example is for illustrative purposes only and has not been clinically verified-->
<Bundle xmlns="http://hl7.org/fhir">
	<id value="6191cc21-cb11-4d99-8cb2-2afe1c7e9d2f"/>
	<meta>
		<lastUpdated value="2015-03-05T14:00:00+00:00"/> 
		<profile value="https://fhir.nhs.uk/STU3/StructureDefinition/ITK-Document-Bundle-1"/>
	</meta>
	<identifier>
		<system value="https://tools.ietf.org/html/rfc4122"/>
		<value value="8added16-7324-4b62-acea-dbc2c88fb3cd"/>
	</identifier>
	<type value="document"/>
	<entry>
		<fullUrl value="urn:uuid:c8572d03-8669-4689-b713-ba68753a49d6"/>
		<resource>
			<!--A resource carrying a set of healthcare-related information about the patient-->
			<Composition>
				<id value="c8572d03-8669-4689-b713-ba68753a49d6"/>
				<meta>
					<profile value="https://fhir.nhs.uk/STU3/StructureDefinition/CareConnect-ITK-MH-Composition-1"/>
				</meta>
				<!-- Extension to carry details of the Correspondence Care Setting Type. -->
				<extension url="https://fhir.nhs.uk/STU3/StructureDefinition/Extension-CareSettingType-1">
					<valueCodeableConcept>
						<coding>
							<system value="http://snomed.info/sct"/>
							<code value="892811000000109"/>
							<display value="Adult mental health service"/>
						</coding>
					</valueCodeableConcept>
				</extension>
				<identifier>
					<system value="https://tools.ietf.org/html/rfc4122"/>
					<value value="53cb32ab-a858-44d6-9bef-34c7fc4ee4ec"/>
				</identifier>
				<!--The workflow/clinical status of this composition. The status is a marker for the clinical standing of the document.-->
				<status value="final"/>
				<type>
					<!--Discharge Summary document type-->
					<coding>
						<system value="http://snomed.info/sct"/>
						<code value="373942005"/>
						<display value="Discharge summary"/>
					</coding>
				</type>
				<!--Reference to the patient subject of the Composition-->
				<subject>
					<reference value="urn:uuid:1c5a26fd-b317-4fc0-8e0d-7ed8c75d34d8"/>
				</subject>
				<!--Reference to the clinical encounter or type of care this documentation is associated with.-->
				<encounter>
					<reference value="urn:uuid:c37a3a1a-0895-44c4-a79a-f7b7bb425e47"/>
				</encounter>
				<!--The composition editing time, when the composition was last logically changed by the author.-->
				<date value="2015-03-05T12:00:00+00:00"/>
				<!--Identifies who is responsible for the information in the composition, not necessarily who typed it in-->
				<author>
					<reference value="urn:uuid:ba20623e-6d70-420e-bbf9-e4b6ac0f50b3"/>
				</author>
				<title value="Adult Mental Health Service Discharge Summary"/>
				<!--Identifies the organization responsible for ongoing maintenance of and access to the composition/document information.-->
				<custodian>
					<reference value="urn:uuid:35e7fc14-f7cb-4b6d-bb41-2ad7f45c501c"/>
				</custodian>
				<!--Admission details-->
				<section>
					<!--The label for this particular section. This will be part of the rendered content for the document, and is often used to build a table of contents.-->
					<title value="Admission details"/>
					<!--A SNOMED CT code identifying the kind of content contained within the section-->
					<code>
						<coding>
							<system value="http://snomed.info/sct"/>
							<code value="886781000000108"/>
							<display value="Admission details"/>
						</coding>
					</code>
					<!--A human-readable narrative that contains the attested content of the section-->
					<text>
						<status value="additional"/>
						<div xmlns="http://www.w3.org/1999/xhtml">
							<table width="100%">
								<tbody>
									<tr>
										<th>Reason for admission</th>
										<td>Paranoid Schizophrenia</td>
									</tr>
									<tr>
										<th>Admission method</th>
										<td>Accident and emergency or dental casualty department of the Health Care Provider</td>
									</tr>
									<tr>
										<th>Legal status on admission</th>
										<td>Informal</td>
									</tr>
									<tr>
										<th>Source of admission</th>
										<td>NHS other Hospital Provider - Ward for general Patients or the younger physically disabled or A and E department</td>
									</tr>
									<tr>
										<th>Date/time of admission</th>
										<td>12-Feb-2015 12:00</td>
									</tr>
								</tbody>
							</table>
						</div>
					</text>
					<!--Reference to the encounter resource where information for this section can be found-->
					<entry>
						<reference value="urn:uuid:c37a3a1a-0895-44c4-a79a-f7b7bb425e47"/>
					</entry>
				</section>
				<!--Allergies and adverse reactions-->
				<section>
					<title value="Allergies and adverse reactions"/>
					<code>
						<coding>
							<system value="http://snomed.info/sct"/>
							<code value="886921000000105"/>
							<display value="Allergies and adverse reactions"/>
						</coding>
					</code>
					<text>
						<status value="additional"/>
						<div xmlns="http://www.w3.org/1999/xhtml">
							<table width="100%">
								<tbody>
									<tr>
										<td>No known allergy</td>
									</tr>
								</tbody>
							</table>
						</div>
					</text>
				</section>
				<!--Clinical summary-->
				<section>
					<title value="Clinical summary"/>
					<code>
						<coding>
							<system value="http://snomed.info/sct"/>
							<code value="887181000000106"/>
							<display value="Clinical summary"/>
						</coding>
					</code>
					<text>
						<status value="additional"/>
						<div xmlns="http://www.w3.org/1999/xhtml">
							<table width="100%">
								<tbody>
									<tr>
										<th>Clinical Summary</th>
									</tr>
									<tr>
										<td>
											<p>Brought to the hospital A+E department by the police as had been involved in a disturbance in a shopping centre, assaulting another customer.</p>
											<p>Agitated on interview and denying any thoughts of self-harm.</p>
											<p>Denied any drug misuse.</p>
											<p>Well known to local mental health services.</p>
										</td>
									</tr>
									<tr>
										<th>Treatments and interventions and changes made to treatments</th>
									</tr>
									<tr>
										<td>
											<p>Tested negative for banned substances following admission.</p>
											<p>Diagnosis of Paranoid Schizophrenia, frequently uncompliant with treatment.</p>
											<p>Due to poor adherence with treatment she was discharged from hospital subject to a Community Treatment Order and is, 
therefore, subject to recall to hospital if she does not adhere to treatment.</p>
										</td>
									</tr>
								</tbody>
							</table>
						</div>
					</text>
				</section>
				<!--Diagnoses-->
				<section>
					<title value="Diagnoses"/>
					<code>
						<coding>
							<system value="http://snomed.info/sct"/>
							<code value="887161000000102"/>
							<display value="Diagnoses"/>
						</coding>
					</code>
					<text>
						<status value="generated"/>
						<div xmlns="http://www.w3.org/1999/xhtml">
							<table width="100%">
								<tbody>
									<tr>
										<th>Diagnosis name</th>
										<td>Paranoid Schizophrenia</td>
									</tr>
								</tbody>
							</table>
						</div>
					</text>
					<!-- Reference to Condition list-->
					<entry>
						<reference value="urn:uuid:1a7c1ae4-cc97-46cf-b307-63ca0cc30d07"/>
					</entry>
				</section>
				<!--Discharge details-->
				<section>
					<title value="Discharge details"/>
					<code>
						<coding>
							<system value="http://snomed.info/sct"/>
							<code value="886811000000106"/>
							<display value="Discharge details"/>
						</coding>
					</code>
					<text>
						<status value="additional"/>
						<div xmlns="http://www.w3.org/1999/xhtml">
							<table width="100%">
								<tbody>
									<tr>
										<th>Discharging consultant</th>
										<td>
											<p>Prefix: Dr</p>
											<p>Given Name: Mike</p>
											<p>Family Name: Scott</p>
											<p>Identifier: 9222477</p>
										</td>
									</tr>
									<tr>
										<th>Discharging specialty/department</th>
										<td>Adult Mental Health Service</td>
									</tr>
									<tr>
										<th>Discharge location</th>
										<td>Allerton ward</td>
									</tr>
									<tr>
										<th>Date/time of discharge</th>
										<td>05-Mar-2015 12:00</td>
									</tr>
									<tr>
										<th>Legal status on discharge</th>
										<td>Formal CTO</td>
									</tr>
									<tr>
										<th>Discharge method</th>
										<td>Patient discharged on clinical advice or with clinical consent</td>
									</tr>
									<tr>
										<th>Discharge destination</th>
										<td>Discharge type: Temporary place of residence when usually resident elsewhere (e.g. hotels, residential Educational Establishment)<p>Discharge address: 27, Grove Street, Leeds, LS21 4GG</p>
										</td>
									</tr>
								</tbody>
							</table>
						</div>
					</text>
					<!--Reference to the Encounter entry as the source of information for this section-->
					<entry>
						<reference value="urn:uuid:c37a3a1a-0895-44c4-a79a-f7b7bb425e47"/>
					</entry>
					<!--Reference to the Practitioner entry as the source of information for this section-->
					<entry>
						<reference value="urn:uuid:ba20623e-6d70-420e-bbf9-e4b6ac0f50b3"/>
					</entry>
				</section>
				<!--Distribution list-->
				<section>
					<title value="Distribution list"/>
					<code>
						<coding>
							<system value="http://snomed.info/sct"/>
							<code value="887261000000109"/>
							<display value="Distribution list"/>
						</coding>
					</code>
					<text>
						<status value="generated"/>
						<div xmlns="http://www.w3.org/1999/xhtml">
							<table width="100%">
								<tbody>
									<tr>
										<th>Name</th>
										<td>
											<p>Prefix: Mrs</p>
											<p>Given Name: Gay</p>
											<p>Family Name: Gillingham</p>
											<p>Identifier: 033345750518</p>
										</td>
									</tr>
									<tr>
										<th>Role</th>
										<td>Consultant</td>
									</tr>
									<tr>
										<th>Organisation</th>
										<td>Leeds Mental Health NHS Trust<p>Identifier: RGD</p>
										</td>
									</tr>
								</tbody>
							</table>
							<table width="100%">
								<tbody>
									<tr>
										<th>Name</th>
										<td>
											<p>Prefix: Dr</p>
											<p>Given Name: James</p>
											<p>Family Name: Lozo</p>
											<p>Identifier: GP12345600</p>
										</td>
									</tr>
									<tr>
										<th>Role</th>
										<td>General Medical Practitioner</td>
									</tr>
									<tr>
										<th>Organisation</th>
										<td>MGP Medical Centre<p>Identifier: GP123456</p>
										</td>
									</tr>
								</tbody>
							</table>
						</div>
					</text>
					<!--Reference to the practitioner entries as recipients of information-->
					<entry>
						<reference value="urn:uuid:4d6804c1-6e9a-4ddd-bf4d-bec9f6f13de7"/>
					</entry>
					<entry>
						<reference value="urn:uuid:3572fd25-27ad-44d4-80a7-8e23c730e2f2"/>
					</entry>
				</section>
				<!-- GP Practice-->
				<section>
					<title value="GP practice"/>
					<code>
						<coding>
							<system value="http://snomed.info/sct"/>
							<code value="886711000000101"/>
							<display value="GP practice"/>
						</coding>
					</code>
					<text>
						<status value="additional"/>
						<div xmlns="http://www.w3.org/1999/xhtml">
							<table width="100%">
								<tbody>
									<tr>
										<th>GP practice identifier</th>
										<td>GP123456</td>
									</tr>
									<tr>
										<th>GP name</th>
										<td>Dr James Lozo</td>
									</tr>
									<tr>
										<th>GP practice details</th>
										<td>
											<p>Name: MGP Medical Centre</p>
											<p>Address:</p>
											<p>Address Line: 1 MGP House, Overtown</p>
											<p>City: Leeds</p>
											<p>Post Code: LS21 7PA</p>
											<p>Tel: 0113 4111223 (Work)</p>
										</td>
									</tr>
								</tbody>
							</table>
						</div>
					</text>
					<!--Reference to the Organisation entry as the source of information for this section-->
					<entry>
						<reference value="urn:uuid:0a8c9568-62d7-49f0-ab13-313215c497ab"/>
					</entry>
				</section>
				<!--Individual requirements-->
				<section>
					<title value="Individual requirements"/>
					<code>
						<coding>
							<system value="http://snomed.info/sct"/>
							<code value="1052901000000109"/>
							<display value="Individual requirement"/>
						</coding>
					</code>
					<text>
						<status value="additional"/>
						<div xmlns="http://www.w3.org/1999/xhtml">
							<table width="100%">
								<tbody>
									<tr>
										<th>Individual requirements</th>
										<td>No special requirements, but states that her daughter should be contacted in an emergency.</td>
									</tr>
								</tbody>
							</table>
						</div>
					</text>
				</section>
				<!--Information and advice given-->
				<section>
					<title value="Information and advice given"/>
					<code>
						<coding>
							<system value="http://snomed.info/sct"/>
							<code value="1052951000000105"/>
							<display value="Information and advice given"/>
						</coding>
					</code>
					<text>
						<status value="additional"/>
						<div xmlns="http://www.w3.org/1999/xhtml">
							<table width="100%">
								<tbody>
									<tr>
										<th>Information and advice given</th>
										<td>Patient warned that she is subject to recall to hospital if she does not adhere to treatment.</td>
									</tr>
								</tbody>
							</table>
						</div>
					</text>
				</section>
				<!--Investigation results-->
				<section>
					<title value="Investigation results"/>
					<code>
						<coding>
							<system value="http://snomed.info/sct"/>
							<code value="1082101000000102"/>
							<display value="Investigation results"/>
						</coding>
					</code>
					<text>
						<status value="additional"/>
						<div xmlns="http://www.w3.org/1999/xhtml">
							<table>
								<tbody>
									<tr>
										<th>Investigation result</th>
									</tr>
									<tr>
										<td>
											<pre>
Full Blood Count      
      
Test						Value			Units			Reference Range
White Cell Count				11.1			x10*9/L			3.5 - 10.0
Red Cell Count					5.0			x10*12/L		4.25 - 5.75 
Haemoglobin					150			g/L			13.0 - 17.0
Haematocrit					0.230						0.400 - 0.500
Mean Cell Volume				90			fL			84 - 98
Mean Cell Hb					33.0			pg			27.5 - 32.0
Mean Cell Hb Con				34.0			pg			31.0 - 35.0
RDW						12.0			%			&lt; 14.5
Platelet Count					300			x10*9/L			150 - 400

Machine Differential      
      
Test                  				Value			Units        		Reference Range
Neutrophils					7.0			x10*9/L			1.7 - 7.5
Lymphocytes					3.5			x10*9/L			1.0 - 3.5   
Monocytes					0.3			x10*9/L			&lt; 0.6  
Eosinophils					0.4			x10*9/L			&lt; 0.4  
Basophils					0.1			x10*9/L			&lt; 0.1 
LUCs						0.2			x10*9/L			&lt; 0.4 
      </pre>
										</td>
									</tr>
								</tbody>
							</table>
						</div>
					</text>
				</section>
				<!--Legal information-->
				<section>
					<title value="Legal information"/>
					<code>
						<coding>
							<system value="http://snomed.info/sct"/>
							<code value="886961000000102"/>
							<display value="Legal information"/>
						</coding>
					</code>
					<text>
						<status value="additional"/>
						<div xmlns="http://www.w3.org/1999/xhtml">
							<table width="100%">
								<tbody>
									<tr>
										<th>Mental Health Act or equivalent status</th>
										<td>Patient subject to a Community Treatment Order.</td>
									</tr>
								</tbody>
							</table>
						</div>
					</text>
				</section>
				<!--Medications-->
				<section>
					<title value="Medications and medical devices"/>
					<code>
						<coding>
							<system value="http://snomed.info/sct"/>
							<code value="933361000000108"/>
							<display value="Medications and medical devices"/>
						</coding>
					</code>
					<text>
						<status value="additional"/>
						<div xmlns="http://www.w3.org/1999/xhtml">
							<table width="100%">
								<tbody>
									<tr>
										<th>Medication item</th>
										<td>Medication name: Olanzapine 10mg tablet</td>
										<td>Form: Tablet</td>
										<td>Route: Oral</td>
										<td>Dose directions description: Take one 10 mg tablet daily.</td>
									</tr>
									<tr>
										<th>Medication change</th>
										<td colspan="4">Status: Continued</td>
									</tr>
								</tbody>
								<tbody>
									<tr>
										<th>Medication item</th>
										<td>Medication name: Diazepam 2mg tablet</td>
										<td>Form: Tablet</td>
										<td>Route: Oral</td>
										<td>Dose directions description: Take three 2mg tablets daily for 7 days</td>
									</tr>
									<tr>
										<th>Medication change</th>
										<td colspan="4">Status: Added</td>
									</tr>
								</tbody>
							</table>
						</div>
					</text>
					<!--Reference to Medication List-->
					<entry>
						<reference value="urn:uuid:9b1cf5d4-2445-4c99-994a-b75b1a13a4f3"/>
					</entry>
				</section>
				<!--Participation in research-->
				<section>
					<title value="Participation in research"/>
					<code>
						<coding>
							<system value="http://snomed.info/sct"/>
							<code value="886751000000102"/>
							<display value="Participation in research"/>
						</coding>
					</code>
					<text>
						<status value="additional"/>
						<div xmlns="http://www.w3.org/1999/xhtml">
							<table width="100%">
								<tbody>
									<tr>
										<th>Participation in research</th>
										<td>Consent not given</td>
									</tr>
								</tbody>
							</table>
						</div>
					</text>
				</section>
				<!--Patient and carer concerns-->
				<section>
					<title value="Patient and carer concerns, expectations and wishes"/>
					<code>
						<coding>
							<system value="http://snomed.info/sct"/>
							<code value="1052941000000107"/>
							<display value="Patient and carer concerns, expectations and wishes"/>
						</coding>
					</code>
					<text>
						<status value="additional"/>
						<div xmlns="http://www.w3.org/1999/xhtml">
							<table width="100%">
								<tbody>
									<tr>
										<th>Patient and carer concerns, expectations and wishes</th>
										<td>Patient stated "I want to stay with my daughter till I recover."</td>
									</tr>
								</tbody>
							</table>
						</div>
					</text>
				</section>
				<!-- Patient demographics-->
				<section>
					<title value="Patient demographics"/>
					<code>
						<coding>
							<system value="http://snomed.info/sct"/>
							<code value="886731000000109"/>
							<display value="Patient demographics"/>
						</coding>
					</code>
					<text>
						<status value="additional"/>
						<div xmlns="http://www.w3.org/1999/xhtml">
							<table width="100%">
								<tbody>
									<tr>
										<th>Patient name</th>
										<td>
											<p>Prefix: Ms</p>
											<p>Given Name: Elizabeth</p>
											<p>Family Name: Black</p>
										</td>
									</tr>
									<tr>
										<th>Patient preferred name</th>
										<td>
											<p>Prefix: Ms</p>
											<p>Given Name: Liz</p>
											<p>Family Name: Black</p>
										</td>
									</tr>
									<tr>
										<th>Date of birth</th>
										<td>09 June 1969</td>
									</tr>
									<tr>
										<th>Gender</th>
										<td>Female</td>
									</tr>
									<tr>
										<th>NHS number</th>
										<td>9996668887</td>
									</tr>
									<tr>
										<th>Patient address</th>
										<td>
											<p>Address Line: 21, Grove Street, Overtown</p>
											<p>City: Leeds</p>
											<p>Post Code: LS21 4GG</p>
										</td>
									</tr>
									<tr>
										<th>Relevant contacts</th>
										<td>Name: Susan Smith<p>Relationship: Next of kin</p>
											<p>Contact details: Tel: 0782345678 Email: mrssuesmith@mymail.com</p>
										</td>
									</tr>
								</tbody>
							</table>
						</div>
					</text>
					<!--reference to further information carried in the patient resource-->
					<entry>
						<reference value="urn:uuid:1c5a26fd-b317-4fc0-8e0d-7ed8c75d34d8"/>
					</entry>
				</section>
				<!--Person completing record-->
				<section>
					<title value="Person completing record"/>
					<code>
						<coding>
							<system value="http://snomed.info/sct"/>
							<code value="887231000000104"/>
							<display value="Person completing record"/>
						</coding>
					</code>
					<text>
						<status value="additional"/>
						<div xmlns="http://www.w3.org/1999/xhtml">
							<table width="100%">
								<tbody>
									<tr>
										<th>Name</th>
										<td>
											<p>Prefix: Dr</p>
											<p>Given Name: Mike</p>
											<p>Family Name: Scott</p>
											<p>Identifier: 9222477</p>
										</td>
									</tr>
									<tr>
										<th>Role</th>
										<td>Specialist Registrar</td>
									</tr>
									<tr>
										<th>Specialty</th>
										<td>Adult mental illness - speciality</td>
									</tr>
									<tr>
										<th>Date and time completed</th>
										<td>05-Mar-2015 13:00</td>
									</tr>
									<tr>
										<th>Contact details</th>
										<td>Phone: 0113 111225 (Work)</td>
									</tr>
								</tbody>
							</table>
						</div>
					</text>
					<!--reference to practitioner entry-->
					<entry>
						<reference value="urn:uuid:ba20623e-6d70-420e-bbf9-e4b6ac0f50b3"/>
					</entry>
				</section>
				<!--Plan and requested actions-->
				<section>
					<title value="Plan and requested actions"/>
					<code>
						<coding>
							<system value="http://snomed.info/sct"/>
							<code value="887201000000105"/>
							<display value="Plan and requested actions"/>
						</coding>
					</code>
					<text>
						<status value="additional"/>
						<div xmlns="http://www.w3.org/1999/xhtml">
							<table width="100%">
								<tbody>
									<tr>
										<th>Actions for healthcare professionals</th>
										<td>
											<p>Physical attention will be needed from Primary Care due to the fact she is on an atypical antipsychotic and 
will need weight and general health monitoring by the Community Consultant/Team:Dr Gillingham Leeds Recovery and Support Team. </p>
											<p>Status: Requested</p>
										</td>
									</tr>
									<tr>
										<th>Actions for patient or their carer</th>
										<td>Patient to commence prescribed medication.</td>
									</tr>
									<tr>
										<th>Agreed with patient or legitimate patient representative</th>
										<td>Patient has agreed to treatment plan.</td>
									</tr>
									<tr>
										<th>Care planning arrangements</th>
										<td>CPA Status and 117 Aftercare: Follow up will be made by the Leeds Recovery and Support team. 
7 Day Follow up will be done by the community team.
           <p>Status: Requested</p>
										</td>
									</tr>
								</tbody>
							</table>
						</div>
					</text>
				</section>
				<!--Procedures-->
				<section>
					<title value="Procedures"/>
					<code>
						<coding>
							<system value="http://snomed.info/sct"/>
							<code value="887171000000109"/>
							<display value="Procedures"/>
						</coding>
					</code>
					<text>
						<status value="generated"/>
						<div xmlns="http://www.w3.org/1999/xhtml">
							<table width="100%">
								<tbody>
									<tr>
										<th>Procedure name</th>
										<td>Drug of abuse screen</td>
									</tr>
								</tbody>
							</table>
						</div>
					</text>
					<!--reference to further information carried in the procedure list-->
					<entry>
						<reference value="urn:uuid:f5ad3779-20b7-4dd4-b73e-251b079936c3"/>
					</entry>
				</section>
				<!--Referrer details-->
				<section>
					<title value="Referrer details"/>
					<code>
						<coding>
							<system value="http://snomed.info/sct"/>
							<code value="1052891000000108"/>
							<display value="Referrer details"/>
						</coding>
					</code>
					<text>
						<status value="additional"/>
						<div xmlns="http://www.w3.org/1999/xhtml">
							<table width="100%">
								<tbody>
									<tr>
										<th>Referrer details</th>
										<td>Dr. Daniel Beck, Consultant, Leeds Mental Health NHS Trust <p>Tel: 0113 3246666</p>
										</td>
									</tr>
								</tbody>
							</table>
						</div>
					</text>
				</section>
				<!--Safety alerts-->
				<section>
					<title value="Safety alerts"/>
					<code>
						<coding>
							<system value="http://snomed.info/sct"/>
							<code value="886931000000107"/>
							<display value="Safety alerts"/>
						</coding>
					</code>
					<text>
						<status value="additional"/>
						<div xmlns="http://www.w3.org/1999/xhtml">
							<table width="100%">
								<tbody>
									<tr>
										<th>Risks to self</th>
										<td>None</td>
									</tr>
									<tr>
										<th>Risks to others</th>
										<td>Can be abusive and agitated when non compliant with treatment</td>
									</tr>
									<tr>
										<th>Risk from others</th>
										<td>None</td>
									</tr>
								</tbody>
							</table>
						</div>
					</text>
				</section>
				<!--Social context-->
				<section>
					<title value="Social context"/>
					<code>
						<coding>
							<system value="http://snomed.info/sct"/>
							<code value="887051000000101"/>
							<display value="Social context"/>
						</coding>
					</code>
					<text>
						<status value="additional"/>
						<div xmlns="http://www.w3.org/1999/xhtml">
							<table width="100%">
								<tbody>
									<tr>
										<th>Household composition</th>
										<td>Lives alone</td>
									</tr>
									<tr>
										<th>Alcohol intake</th>
										<td>50 units/week</td>
									</tr>
									<tr>
										<th>Drug/substance use</th>
										<td>Frequently uncompliant with treatment and during these times often misuses alcohol and cannabis.</td>
									</tr>
								</tbody>
							</table>
						</div>
					</text>
				</section>
			</Composition>
		</resource>
	</entry>
	<entry>
		<fullUrl value="urn:uuid:c37a3a1a-0895-44c4-a79a-f7b7bb425e47"/>
		<resource>
			<!--Encounter resource providing context for the discharge-->
			<Encounter>
				<id value="c37a3a1a-0895-44c4-a79a-f7b7bb425e47"/>
				<meta>
					<profile value="https://fhir.nhs.uk/STU3/StructureDefinition/CareConnect-ITK-Encounter-1"/>
				</meta>
				<extension url="https://fhir.hl7.org.uk/STU3/StructureDefinition/Extension-CareConnect-AdmissionMethod-1">
					<valueCodeableConcept>
						<coding>
							<system value="https://fhir.hl7.org.uk/STU3/CodeSystem/CareConnect-AdmissionMethod-1"/>
							<code value="21"/>
							<display value="Accident and emergency or dental casualty department of the Health Care Provider"/>
						</coding>
					</valueCodeableConcept>
				</extension>
				<extension url="https://fhir.hl7.org.uk/STU3/StructureDefinition/Extension-CareConnect-DischargeMethod-1">
					<valueCodeableConcept>
						<coding>
							<system value="https://fhir.hl7.org.uk/STU3/CodeSystem/CareConnect-DischargeMethod-1"/>
							<code value="1"/>
							<display value="Patient discharged on clinical advice or with clinical consent"/>
						</coding>
					</valueCodeableConcept>
				</extension>
				<identifier>
					<system value="https://tools.ietf.org/html/rfc4122"/>
					<value value="e7fc263c-2e22-4dd1-9f5e-57e0e005128f"/>
				</identifier>
				<status value="finished"/>
    <class>
     <system value="http://hl7.org/fhir/v3-ActEncounterCode"/>
     <code value="IMP"/>
     <display value="inpatient encounter"/>
    </class>
    <!--Specific type of encounter-->
    <type>
     <coding>
      <system value="http://snomed.info/sct"/>
      <code value="24882007"/>
      <display value="Medical consultation on hospital inpatient"/>
     </coding>
    </type>
				<!--Reference to the patient as the subject of the Encounter-->
				<subject>
					<reference value="urn:uuid:1c5a26fd-b317-4fc0-8e0d-7ed8c75d34d8"/>
				</subject>
				<!--	The start and end time of the encounter-->
				<period>
					<start value="2015-02-12T12:00:00+00:00"/>
					<end value="2015-03-05T12:00:00+00:00"/>
				</period>
				<reason>
					<coding>
						<system value="http://snomed.info/sct"/>
						<code value="64905009"/>
						<display value="Paranoid schizophrenia"/>
					</coding>
				</reason>
				<hospitalization>
					<admitSource>
						<coding>
							<system value="https://fhir.hl7.org.uk/STU3/CodeSystem/CareConnect-SourceOfAdmission-1"/>
							<code value="51"/>
							<display value="NHS other Hospital Provider - Ward for general Patients or the younger physically disabled or A and E department"/>
						</coding>
					</admitSource>
					<dischargeDisposition>
						<coding>
							<system value="https://fhir.hl7.org.uk/STU3/CodeSystem/CareConnect-DischargeDestination-1"/>
							<code value="29"/>
							<display value="Temporary place of residence when usually resident elsewhere (e.g. hotels, residential Educational Establishment)"/>
						</coding>
					</dischargeDisposition>
				</hospitalization>
				<!--Location patient discharged from-->
				<location>
					<location>
						<reference value="urn:uuid:d19c145a-9fa4-401d-89cc-4024c1a9b74a"/>
					</location>
					<period>
						<start value="2015-02-12T12:00:00+00:00"/>
						<end value="2015-03-05T12:00:00+00:00"/>
					</period>
				</location>
			</Encounter>
		</resource>
	</entry>
	<entry>
		<fullUrl value="urn:uuid:9b1cf5d4-2445-4c99-994a-b75b1a13a4f3"/>
		<resource>
			<List>
				<id value="9b1cf5d4-2445-4c99-994a-b75b1a13a4f3"/>
				<meta>
					<profile value="https://fhir.nhs.uk/STU3/StructureDefinition/CareConnect-ITK-Medication-List-1"/>
				</meta>
				<identifier>
					<system value="https://tools.ietf.org/html/rfc4122"/>
					<value value="09b9a4ff-22d7-4ad4-80d0-a608474325d5"/>
				</identifier>
				<status value="current"/>
				<mode value="snapshot"/>
				<code>
					<coding>
						<system value="http://snomed.info/sct"/>
						<code value="933361000000108"/>
						<display value="Medications and medical devices"/>
					</coding>
				</code>
				<subject>
					<reference value="urn:uuid:1c5a26fd-b317-4fc0-8e0d-7ed8c75d34d8"/>
				</subject>
				<encounter>
					<reference value="urn:uuid:c37a3a1a-0895-44c4-a79a-f7b7bb425e47"/>
				</encounter>
				<entry>
					<flag>
						<coding>
							<system value="https://fhir.nhs.uk/STU3/CodeSystem/ITK-PatientMedicationChangeType-1"/>
							<code value="1"/>
							<display value="Continued"/>
						</coding>
					</flag>
					<item>
						<reference value="urn:uuid:8006a0b5-4081-40f0-8b00-ccc22489ce24"/>
					</item>
				</entry>
				<entry>
					<flag>
						<coding>
							<system value="https://fhir.nhs.uk/STU3/CodeSystem/ITK-PatientMedicationChangeType-1"/>
							<code value="4"/>
							<display value="Addition"/>
						</coding>
					</flag>
					<item>
						<reference value="urn:uuid:467c0506-a1eb-4724-acf7-eef207d84ae3"/>
					</item>
				</entry>
			</List>
		</resource>
	</entry>
	<entry>
		<fullUrl value="urn:uuid:8006a0b5-4081-40f0-8b00-ccc22489ce24"/>
		<resource>
			<MedicationStatement>
				<id value="8006a0b5-4081-40f0-8b00-ccc22489ce24"/>
				<meta>
					<profile value="https://fhir.nhs.uk/STU3/StructureDefinition/CareConnect-ITK-MedicationStatement-1"/>
				</meta>
				<extension url="https://fhir.hl7.org.uk/STU3/StructureDefinition/Extension-CareConnect-MedicationChangeSummary-1">
					<extension url="status">
						<valueCode value="Continued"/>
					</extension>
				</extension>
				<identifier>
					<system value="https://tools.ietf.org/html/rfc4122"/>
					<value value="609d5288-94d2-4c51-a23a-d52f7c9d34e5"/>
				</identifier>
				<status value="active"/>
				<medicationReference>
					<reference value="urn:uuid:5a3fb02a-da72-4cdb-b330-7eaee31312de"/>
				</medicationReference>
				<!--Patient subject of the Medication statement-->
				<subject>
					<reference value="urn:uuid:1c5a26fd-b317-4fc0-8e0d-7ed8c75d34d8"/>
				</subject>
				<taken value="y"/>
				<dosage>
					<text value="Take one 10 mg tablet daily."/>
					<route>
						<coding>
							<system value="http://snomed.info/sct"/>
							<code value="260548002"/>
							<display value="Oral"/>
						</coding>
					</route>
				</dosage>
			</MedicationStatement>
		</resource>
	</entry>
	<entry>
		<fullUrl value="urn:uuid:467c0506-a1eb-4724-acf7-eef207d84ae3"/>
		<resource>
			<MedicationStatement>
				<id value="467c0506-a1eb-4724-acf7-eef207d84ae3"/>
				<meta>
					<profile value="https://fhir.nhs.uk/STU3/StructureDefinition/CareConnect-ITK-MedicationStatement-1"/>
				</meta>
				<extension url="https://fhir.hl7.org.uk/STU3/StructureDefinition/Extension-CareConnect-MedicationChangeSummary-1">
					<extension url="status">
						<valueCode value="Added"/>
					</extension>
				</extension>
				<identifier>
					<system value="https://tools.ietf.org/html/rfc4122"/>
					<value value="4aa3342b-9b27-4c2e-ac7b-23dcfcfb7a0d"/>
				</identifier>
				<status value="active"/>
				<medicationReference>
					<reference value="urn:uuid:f84d8ee4-a661-47b1-b23a-bbb5b2829791"/>
				</medicationReference>
				<subject>
					<reference value="urn:uuid:1c5a26fd-b317-4fc0-8e0d-7ed8c75d34d8"/>
				</subject>
				<taken value="y"/>
				<dosage>
					<text value="Take three 2mg tablets daily for 7 days"/>
					<route>
						<coding>
							<system value="http://snomed.info/sct"/>
							<code value="260548002"/>
							<display value="Oral"/>
						</coding>
					</route>
				</dosage>
			</MedicationStatement>
		</resource>
	</entry>
	<!--Medication Example 1-->
	<entry>
		<fullUrl value="urn:uuid:5a3fb02a-da72-4cdb-b330-7eaee31312de"/>
		<resource>
			<Medication>
				<id value="5a3fb02a-da72-4cdb-b330-7eaee31312de"/>
				<meta>
					<profile value="https://fhir.nhs.uk/STU3/StructureDefinition/CareConnect-ITK-Medication-1"/>
				</meta>
				<code>
					<coding>
						<system value="http://snomed.info/sct"/>
						<code value="321614001"/>
						<display value="Olanzapine 10mg tablet"/>
					</coding>
				</code>
			</Medication>
		</resource>
	</entry>
	<!--Medication Example 2-->
	<entry>
		<fullUrl value="urn:uuid:f84d8ee4-a661-47b1-b23a-bbb5b2829791"/>
		<resource>
			<Medication>
				<id value="f84d8ee4-a661-47b1-b23a-bbb5b2829791"/>
				<meta>
					<profile value="https://fhir.nhs.uk/STU3/StructureDefinition/CareConnect-ITK-Medication-1"/>
				</meta>
				<code>
					<coding>
						<system value="http://snomed.info/sct"/>
						<code value="321196004"/>
						<display value="Diazepam 2mg tablet"/>
					</coding>
				</code>
			</Medication>
		</resource>
	</entry>
	<!-- Procedure List-->
	<entry>
		<fullUrl value="urn:uuid:f5ad3779-20b7-4dd4-b73e-251b079936c3"/>
		<resource>
			<List>
				<id value="f5ad3779-20b7-4dd4-b73e-251b079936c3"/>
				<meta>
					<profile value="https://fhir.nhs.uk/STU3/StructureDefinition/CareConnect-ITK-Procedure-List-1"/>
				</meta>
				<identifier>
					<system value="https://tools.ietf.org/html/rfc4122"/>
					<value value="b3eb40e0-e0fd-4dc6-bbbd-b1e3731e7d8f"/>
				</identifier>
				<status value="current"/>
				<mode value="snapshot"/>
				<code>
					<coding>
						<system value="http://snomed.info/sct"/>
						<code value="887171000000109"/>
						<display value="Procedures"/>
					</coding>
				</code>
				<subject>
					<reference value="urn:uuid:1c5a26fd-b317-4fc0-8e0d-7ed8c75d34d8"/>
				</subject>
				<entry>
					<item>
						<reference value="urn:uuid:a3dc2263-d9f7-4ae4-bfcc-e39951b3df26"/>
					</item>
				</entry>
			</List>
		</resource>
	</entry>
	<!--Procedure Example 1-->
	<entry>
		<fullUrl value="urn:uuid:a3dc2263-d9f7-4ae4-bfcc-e39951b3df26"/>
		<resource>
			<Procedure>
				<id value="a3dc2263-d9f7-4ae4-bfcc-e39951b3df26"/>
				<meta>
					<profile value="https://fhir.nhs.uk/STU3/StructureDefinition/CareConnect-ITK-Procedure-1"/>
				</meta>
				<identifier>
					<system value="https://tools.ietf.org/html/rfc4122"/>
					<value value="e58dc578-59d6-4fef-a4fd-471d5ee81ea5"/>
				</identifier>
				<status value="completed"/>
				<code>
					<coding>
						<system value="http://snomed.info/sct"/>
						<code value="89732002"/>
						<display value="Drug of abuse screen"/>
					</coding>
				</code>
				<subject>
					<reference value="urn:uuid:1c5a26fd-b317-4fc0-8e0d-7ed8c75d34d8"/>
				</subject>
				<context>
					<reference value="urn:uuid:c37a3a1a-0895-44c4-a79a-f7b7bb425e47"/>
				</context>
			</Procedure>
		</resource>
	</entry>
	<!--Condition list-->
	<entry>
		<fullUrl value="urn:uuid:1a7c1ae4-cc97-46cf-b307-63ca0cc30d07"/>
		<resource>
			<List>
				<id value="1a7c1ae4-cc97-46cf-b307-63ca0cc30d07"/>
				<meta>
					<profile value="https://fhir.nhs.uk/STU3/StructureDefinition/CareConnect-ITK-Condition-List-1"/>
				</meta>
				<identifier>
					<system value="https://tools.ietf.org/html/rfc4122"/>
					<value value="90e18cfe-6960-4861-9c83-f0057b759a23"/>
				</identifier>
				<status value="current"/>
				<mode value="snapshot"/>
				<code>
					<coding>
						<system value="http://snomed.info/sct"/>
						<code value="887161000000102"/>
						<display value="Diagnoses"/>
					</coding>
				</code>
				<subject>
					<reference value="urn:uuid:1c5a26fd-b317-4fc0-8e0d-7ed8c75d34d8"/>
				</subject>
				<entry>
					<item>
						<reference value="urn:uuid:ebe24eb4-72ff-4300-ac05-dbc69b73ce14"/>
					</item>
				</entry>
			</List>
		</resource>
	</entry>
	<!-- Condition example 1-->
	<entry>
		<fullUrl value="urn:uuid:ebe24eb4-72ff-4300-ac05-dbc69b73ce14"/>
		<resource>
			<Condition>
				<id value="ebe24eb4-72ff-4300-ac05-dbc69b73ce14"/>
				<meta>
					<profile value="https://fhir.nhs.uk/STU3/StructureDefinition/CareConnect-ITK-Condition-1"/>
				</meta>
				<identifier>
					<system value="https://tools.ietf.org/html/rfc4122"/>
					<value value="9f8cef2a-d77e-41a6-8c47-5e1e70570321"/>
				</identifier>
				<clinicalStatus value="active"/>
				<code>
					<coding>
						<system value="http://snomed.info/sct"/>
						<code value="64905009"/>
						<display value="Paranoid schizophrenia"/>
					</coding>
				</code>
				<subject>
					<reference value="urn:uuid:1c5a26fd-b317-4fc0-8e0d-7ed8c75d34d8"/>
				</subject>
				<context>
					<reference value="urn:uuid:c37a3a1a-0895-44c4-a79a-f7b7bb425e47"/>
				</context>
			</Condition>
		</resource>
	</entry>
	<entry>
		<fullUrl value="urn:uuid:1c5a26fd-b317-4fc0-8e0d-7ed8c75d34d8"/>
		<resource>
			<Patient>
				<id value="1c5a26fd-b317-4fc0-8e0d-7ed8c75d34d8"/>
				<meta>
					<profile value="https://fhir.hl7.org.uk/STU3/StructureDefinition/CareConnect-Patient-1"/>
				</meta>
				<identifier>
					<extension url="https://fhir.hl7.org.uk/STU3/StructureDefinition/Extension-CareConnect-NHSNumberVerificationStatus-1">
						<valueCodeableConcept>
							<coding>
								<system value="https://fhir.hl7.org.uk/STU3/CodeSystem/CareConnect-NHSNumberVerificationStatus-1"/>
								<code value="01"/>
								<display value="Number present and verified"/>
							</coding>
						</valueCodeableConcept>
					</extension>
					<system value="https://fhir.nhs.uk/Id/nhs-number"/>
					<value value="9996668887"/>
				</identifier>
				<name>
					<use value="official"/>
					<family value="Black"/>
					<given value="Elizabeth"/>
					<prefix value="Ms"/>
				</name>
				<name>
					<use value="usual"/>
					<family value="Black"/>
					<given value="Liz"/>
					<prefix value="Ms"/>
				</name>
				<gender value="female"/>
				<birthDate value="1969-06-09"/>
				<address>
					<use value="home"/>
					<line value="21, Grove Street, Overtown"/>
					<city value="Leeds"/>
					<postalCode value="LS21 4GG"/>
				</address>
			</Patient>
		</resource>
	</entry>
	<entry>
		<fullUrl value="urn:uuid:4d6804c1-6e9a-4ddd-bf4d-bec9f6f13de7"/>
		<resource>
			<Practitioner>
				<id value="4d6804c1-6e9a-4ddd-bf4d-bec9f6f13de7"/>
				<meta>
					<profile value="https://fhir.hl7.org.uk/STU3/StructureDefinition/CareConnect-Practitioner-1"/>
				</meta>
				<identifier>
					<system value="https://fhir.nhs.uk/Id/sds-user-id"/>
					<value value="GP12345600"/>
				</identifier>
				<name>
					<family value="Lozo"/>
					<given value="James"/>
					<prefix value="Dr"/>
				</name>
			</Practitioner>
		</resource>
	</entry>
	<entry>
		<fullUrl value="urn:uuid:ba20623e-6d70-420e-bbf9-e4b6ac0f50b3"/>
		<resource>
			<Practitioner>
				<id value="ba20623e-6d70-420e-bbf9-e4b6ac0f50b3"/>
				<meta>
					<profile value="https://fhir.hl7.org.uk/STU3/StructureDefinition/CareConnect-Practitioner-1"/>
				</meta>
				<identifier>
					<system value="https://fhir.nhs.uk/Id/local-practitioner-identifier"/>
					<value value="9222477"/>
				</identifier>
				<name>
					<family value="Scott"/>
					<given value="Mike"/>
					<prefix value="Dr"/>
				</name>
				<telecom>
					<system value="phone"/>
					<value value="0113 111225"/>
					<use value="work"/>
				</telecom>
			</Practitioner>
		</resource>
	</entry>
	<entry>
		<fullUrl value="urn:uuid:3572fd25-27ad-44d4-80a7-8e23c730e2f2"/>
		<resource>
			<Practitioner>
				<id value="3572fd25-27ad-44d4-80a7-8e23c730e2f2"/>
				<meta>
					<profile value="https://fhir.hl7.org.uk/STU3/StructureDefinition/CareConnect-Practitioner-1"/>
				</meta>
				<identifier>
					<system value="https://fhir.nhs.uk/Id/sds-user-id"/>
					<value value="033345750518"/>
				</identifier>
				<name>
					<family value="Gillingham"/>
					<given value="Gay"/>
					<prefix value="Mrs"/>
				</name>
			</Practitioner>
		</resource>
	</entry>
	<!--Role details for referenced practitioners-->
	<entry>
		<fullUrl value="urn:uuid:001c858c-3e3d-4b58-be94-0f46c79d8bae"/>
		<resource>
			<PractitionerRole>
				<id value="001c858c-3e3d-4b58-be94-0f46c79d8bae"/>
				<meta>
					<profile value="https://fhir.hl7.org.uk/STU3/StructureDefinition/CareConnect-PractitionerRole-1"/>
				</meta>
				<practitioner>
					<reference value="urn:uuid:4d6804c1-6e9a-4ddd-bf4d-bec9f6f13de7"/>
				</practitioner>
				<organization>
					<reference value="urn:uuid:0a8c9568-62d7-49f0-ab13-313215c497ab"/>
				</organization>
				<code>
					<coding>
						<system value="https://fhir.hl7.org.uk/STU3/CodeSystem/CareConnect-SDSJobRoleName-1"/>
						<code value="R0260"/>
						<display value="General Medical Practitioner"/>
					</coding>
				</code>
			</PractitionerRole>
		</resource>
	</entry>
	<entry>
		<fullUrl value="urn:uuid:18e9c262-e21a-4b32-bf59-eae2e549f5a4"/>
		<resource>
			<PractitionerRole>
				<id value="18e9c262-e21a-4b32-bf59-eae2e549f5a4"/>
				<meta>
					<profile value="https://fhir.hl7.org.uk/STU3/StructureDefinition/CareConnect-PractitionerRole-1"/>
				</meta>
				<practitioner>
					<reference value="urn:uuid:ba20623e-6d70-420e-bbf9-e4b6ac0f50b3"/>
				</practitioner>
				<organization>
					<reference value="urn:uuid:35e7fc14-f7cb-4b6d-bb41-2ad7f45c501c"/>
				</organization>
				<code>
					<coding>
						<system value="https://fhir.hl7.org.uk/STU3/CodeSystem/CareConnect-SDSJobRoleName-1"/>
						<code value="R0110"/>
						<display value="Specialist Registrar"/>
					</coding>
				</code>
				<specialty>
					<coding>
						<system value="http://snomed.info/sct"/>
						<code value="408467006"/>
						<display value="Adult mental illness - speciality"/>
					</coding>
				</specialty>
			</PractitionerRole>
		</resource>
	</entry>
	<entry>
		<fullUrl value="urn:uuid:5eb010c9-4e22-43cb-a0d8-09aa382903c7"/>
		<resource>
			<PractitionerRole>
				<id value="5eb010c9-4e22-43cb-a0d8-09aa382903c7"/>
				<meta>
					<profile value="https://fhir.hl7.org.uk/STU3/StructureDefinition/CareConnect-PractitionerRole-1"/>
				</meta>
				<practitioner>
					<reference value="urn:uuid:3572fd25-27ad-44d4-80a7-8e23c730e2f2"/>
				</practitioner>
				<organization>
					<reference value="urn:uuid:35e7fc14-f7cb-4b6d-bb41-2ad7f45c501c"/>
				</organization>
				<code>
					<coding>
						<system value="https://fhir.hl7.org.uk/STU3/CodeSystem/CareConnect-SDSJobRoleName-1"/>
						<code value="R0050"/>
						<display value="Consultant"/>
					</coding>
					<text value="Community Team Member"/>
				</code>
			</PractitionerRole>
		</resource>
	</entry>
	<entry>
		<fullUrl value="urn:uuid:0a8c9568-62d7-49f0-ab13-313215c497ab"/>
		<resource>
			<Organization>
				<id value="0a8c9568-62d7-49f0-ab13-313215c497ab"/>
				<meta>
					<profile value="https://fhir.hl7.org.uk/STU3/StructureDefinition/CareConnect-Organization-1"/>
				</meta>
				<identifier>
					<system value="https://fhir.nhs.uk/Id/ods-organization-code"/>
					<value value="GP123456"/>
				</identifier>
				<name value="MGP Medical Centre"/>
				<telecom>
					<system value="phone"/>
					<value value="0113 4111223"/>
					<use value="work"/>
				</telecom>
				<address>
					<line value="1 MGP House, Overtown"/>
					<city value="Leeds"/>
					<postalCode value="LS21 7PA"/>
				</address>
			</Organization>
		</resource>
	</entry>
	<entry>
		<fullUrl value="urn:uuid:35e7fc14-f7cb-4b6d-bb41-2ad7f45c501c"/>
		<resource>
			<Organization>
				<id value="35e7fc14-f7cb-4b6d-bb41-2ad7f45c501c"/>
				<meta>
					<profile value="https://fhir.hl7.org.uk/STU3/StructureDefinition/CareConnect-Organization-1"/>
				</meta>
				<identifier>
					<system value="https://fhir.nhs.uk/Id/ods-organization-code"/>
					<value value="RGD"/>
				</identifier>
				<name value="Leeds Mental Health NHS Trust"/>
			</Organization>
		</resource>
	</entry>
	<!--Location example 1-->
	<entry>
		<fullUrl value="urn:uuid:d19c145a-9fa4-401d-89cc-4024c1a9b74a"/>
		<resource>
			<Location>
				<id value="d19c145a-9fa4-401d-89cc-4024c1a9b74a"/>
				<meta>
					<profile value="https://fhir.hl7.org.uk/STU3/StructureDefinition/CareConnect-Location-1"/>
				</meta>
				<name value="Allerton Ward"/>
				<managingOrganization>
					<reference value="urn:uuid:35e7fc14-f7cb-4b6d-bb41-2ad7f45c501c"/>
				</managingOrganization>
			</Location>
		</resource>
	</entry>
</Bundle>
