<Bundle xmlns="http://hl7.org/fhir" xmlns:xsi="http://www.w3.org/2001/XMLSchema-instance" xsi:schemaLocation="http://hl7.org/fhir file:///C:/Git/SchemasSTU3/bundle.xsd">
    <id value="d6996c07-f14d-4975-afa6-1de4a4bbd2d0"/>
    <meta>
        <profile value="https://fhir.nhs.uk/STU3/StructureDefinition/DCH-Bundle-1"/>
    </meta>
    <type value="message"/>
    <!--Message Header-->
    <entry>
        <fullUrl value="urn:uuid:85c8a1c5-a8a1-41c9-bb99-20956fa66218"/>
        <resource>
            <MessageHeader>
                <id value="85c8a1c5-a8a1-41c9-bb99-20956fa66218"/>
                <meta>
                    <profile value="https://fhir.nhs.uk/STU3/StructureDefinition/DCH-MessageHeader-1"/>
                </meta>
                <extension url="https://fhir.nhs.uk/STU3/StructureDefinition/Extension-DCH-MessageEventType-1">
                    <valueCodeableConcept>
                        <coding>
                            <system value="https://fhir.nhs.uk/STU3/CodeSystem/DCH-MessageEventType-1"/>
                            <code value="new"/>
                            <display value="New event message"/>
                        </coding>
                    </valueCodeableConcept>
                </extension>
                <event>
                    <system value="https://fhir.nhs.uk/STU3/CodeSystem/DCH-ChildHealthEventType-1"/>
                    <code value="CH021"/>
                    <display value="Newborn Hearing"/>
                </event>
                <timestamp value="2017-11-01T15:00:00+00:00"/>
                <source>
                    <endpoint value="urn:nhs-uk:addressing:ods:A83627"/>
                </source>
                <responsible>
                    <reference value="urn:uuid:3ff6d789-af64-4d9c-aa1d-0087d29e9e1c"/>
                    <display value="SILVERDALE FAMILY PRACTICE"/>
                </responsible>
                <focus>
                    <reference value="urn:uuid:12779557-9033-4213-876f-69a670cdf35d"/>
                </focus>
            </MessageHeader>
        </resource>
    </entry>
    <!--Responsible Org (MessageHeader.responsible)-->
    <entry>
        <fullUrl value="urn:uuid:3ff6d789-af64-4d9c-aa1d-0087d29e9e1c"/>
        <resource>
            <Organization>
                <id value="3ff6d789-af64-4d9c-aa1d-0087d29e9e1c"/>
                <meta>
                    <profile value="https://fhir.hl7.org.uk/STU3/StructureDefinition/CareConnect-Organization-1"/>
                </meta>
                <identifier>
                    <system value="https://fhir.nhs.uk/Id/ods-organization-code"/>
                    <value value="A83627"/>
                </identifier>
                <name value="SILVERDALE FAMILY PRACTICE"/>
                <address>
                    <line value="FRONT STREET"/>
                    <line value="SOUTH HETTON"/>
                    <city value="DURHAM"/>
                    <district value="COUNTY DURHAM"/>
                    <postalCode value="DH6 2TH"/>
                </address>
            </Organization>
        </resource>
    </entry>
    <!--Healthcare service used e.g GP, trust, etc..-->
    <entry>
        <fullUrl value="urn:uuid:5a293df7-b22f-41b6-8bf1-44248ea59edb"/>
        <resource>
            <HealthcareService>
                <id value="5a293df7-b22f-41b6-8bf1-44248ea59edb"/>
                <meta>
                    <profile value="https://fhir.nhs.uk/STU3/StructureDefinition/DCH-HealthcareService-1"/>
                </meta>
                <providedBy>
                    <reference value="urn:uuid:3ff6d789-af64-4d9c-aa1d-0087d29e9e1c"/>
                    <display value="SILVERDALE FAMILY PRACTICE"/>
                </providedBy>
                <type>
                    <coding>
                        <system value="http://snomed.info/sct"/>
                        <code value="310008001"/>
                        <display value="Audiological screening service"/>
                    </coding>
                </type>
                <location>
                    <reference value="urn:uuid:e3177167-40fc-4f1a-80f2-a2f17f18fde7"/>
                </location>
                <telecom>
                    <system value="phone"/>
                    <value value="0191 1231234"/>
                </telecom>
            </HealthcareService>
        </resource>
    </entry>
    <!--Child Details (Jack Dawkins)-->
    <entry>
        <fullUrl value="urn:uuid:5d5845f3-398f-474b-af59-14882fc7b0ca"/>
        <resource>
            <Patient>
                <id value="5d5845f3-398f-474b-af59-14882fc7b0ca"/>
                <meta>
                    <profile value="https://fhir.nhs.uk/STU3/StructureDefinition/CareConnect-DCH-Patient-1"/>
                </meta>
                <identifier>
                    <extension url="https://fhir.hl7.org.uk/STU3/StructureDefinition/Extension-CareConnect-NHSNumberVerificationStatus-1">
                        <valueCodeableConcept>
                            <coding>
                                <system value="https://fhir.hl7.org.uk/STU3/CodeSystem/CareConnect-NHSNumberVerificationStatus-1"/>
                                <code value="01"/>
                                <display value="Number present and verified"/>
                            </coding>
                        </valueCodeableConcept>
                    </extension>
                    <system value="https://fhir.nhs.uk/Id/nhs-number"/>
                    <value value="9912003888"/>
                </identifier>
                <name>
                    <use value="official"/>
                    <family value="DAWKINS"/>
                    <given value="Jack"/>
                </name>
                <gender value="male"/>
                <birthDate value="2013-10-12">
                    <extension url="http://hl7.org/fhir/StructureDefinition/patient-birthTime">
                        <valueDateTime value="2017-10-02T12:00:00+00:00"/>
                    </extension>
                </birthDate>
                <address>
                    <use value="home"/>
                    <line value="4 Sandmoor Drive"/>
                    <city value="DURHAM"/>
                    <postalCode value="DH1 2TF"/>
                </address>
            </Patient>
        </resource>
    </entry>
    <!--Encounter details-->
    <entry>
        <fullUrl value="urn:uuid:12779557-9033-4213-876f-69a670cdf35d"/>
        <resource>
            <Encounter>
                <id value="12779557-9033-4213-876f-69a670cdf35d"/>
                <meta>
                    <profile value="https://fhir.nhs.uk/STU3/StructureDefinition/CareConnect-DCH-Encounter-1"/>
                </meta>
                <status value="finished"/>
                <type>
                    <coding>
                        <system value="https://fhir.nhs.uk/STU3/CodeSystem/DCH-ChildHealthEncounterType-1"/>
                        <code value="0028"/>
                        <display value="GP Appointment"/>
                    </coding>
                </type>
                <subject>
                    <reference value="urn:uuid:5d5845f3-398f-474b-af59-14882fc7b0ca"/>
                    <display value="DAWKINS, Jack"/>
                </subject>
                <participant>
                    <type>
                        <coding>
                            <system value="http://hl7.org/fhir/v3/ParticipationType"/>
                            <code value="PPRF"/>
                            <display value="primary performer"/>
                        </coding>
                    </type>
                    <individual>
                        <reference value="urn:uuid:285e33ce-918f-406b-b971-f253fe53160e"/>
                        <display value="EMMANUEL, Gladys"/>
                    </individual>
                </participant>
                <period>
                    <start value="2017-10-31"/>
                </period>
                <location>
                    <location>
                        <reference value="urn:uuid:e3177167-40fc-4f1a-80f2-a2f17f18fde7"/>
                        <display value="SILVERDALE FAMILY PRACTICE"/>
                    </location>
                </location>
                <serviceProvider>
                    <reference value="urn:uuid:e3177167-40fc-4f1a-80f2-a2f17f18fde7"/>
                    <display value="SILVERDALE FAMILY PRACTICE"/>
                </serviceProvider>
            </Encounter>
        </resource>
    </entry>
    <!--AABR - Right Ear-->
    <entry>
        <fullUrl value="urn:uuid:e49ff5ba-80f1-11e8-adc0-fa7ae01bbebc"/>
        <resource>
            <Procedure>
                <id value="e49ff5ba-80f1-11e8-adc0-fa7ae01bbebc"/>
                <meta>
                    <profile value="https://fhir.nhs.uk/STU3/StructureDefinition/CareConnect-DCH-AABRHearingTest-Procedure-1"/>
                </meta>
                <status value="completed"/>
                <code>
                    <coding>
                        <system value="http://snomed.info/sct"/>
                        <code value="413083006"/>
                        <display value="Automated auditory brainstem response test (procedure)"/>
                    </coding>
                </code>
                <subject>
                    <reference value="urn:uuid:5d5845f3-398f-474b-af59-14882fc7b0ca"/>
                </subject>
                <context>
                    <reference value="urn:uuid:12779557-9033-4213-876f-69a670cdf35d"/>
                </context>
                <performedDateTime value="2017-10-31T09:00:00+00:00"/>
                <performer>
                    <actor>
                        <reference value="urn:uuid:285e33ce-918f-406b-b971-f253fe53160e"/>
                    </actor>
                </performer>
                <outcome>
                    <coding>
                        <system value="http://snomed.info/sct"/>
                        <code value="751441000000107"/>
                        <display value="Automated auditory brainstem response test right ear clear response"/>
                    </coding>
                </outcome>
            </Procedure>
        </resource>
    </entry>
    <!--AABR - Left Ear-->
    <entry>
        <fullUrl value="urn:uuid:e49ff830-80f1-11e8-adc0-fa7ae01bbebc"/>
        <resource>
            <Procedure>
                <id value="e49ff830-80f1-11e8-adc0-fa7ae01bbebc"/>
                <meta>
                    <profile value="https://fhir.nhs.uk/STU3/StructureDefinition/CareConnect-DCH-AABRHearingTest-Procedure-1"/>
                </meta>
                <status value="completed"/>
                <code>
                    <coding>
                        <system value="http://snomed.info/sct"/>
                        <code value="413083006"/>
                        <display value="Automated auditory brainstem response test (procedure)"/>
                    </coding>
                </code>
                <subject>
                    <reference value="urn:uuid:5d5845f3-398f-474b-af59-14882fc7b0ca"/>
                </subject>
                <context>
                    <reference value="urn:uuid:12779557-9033-4213-876f-69a670cdf35d"/>
                </context>
                <performedDateTime value="2017-10-31T09:00:00+00:00"/>
                <performer>
                    <actor>
                        <reference value="urn:uuid:285e33ce-918f-406b-b971-f253fe53160e"/>
                    </actor>
                </performer>
                <outcome>
                    <coding>
                        <system value="http://snomed.info/sct"/>
                        <code value="1085431000000105"/>
                        <display value="Automated auditory brainstem response test left ear clear response"/>
                    </coding>
                </outcome>
            </Procedure>
        </resource>
    </entry>
    <!--AOAE - Right Ear-->
    <entry>
        <fullUrl value="urn:uuid:e49ffbd2-80f1-11e8-adc0-fa7ae01bbebc"/>
        <resource>
            <Procedure>
                <id value="e49ffbd2-80f1-11e8-adc0-fa7ae01bbebc"/>
                <meta>
                    <profile value="https://fhir.nhs.uk/STU3/StructureDefinition/CareConnect-DCH-AOAEHearingTest-Procedure-1"/>
                </meta>
                <status value="completed"/>
                <code>
                    <coding>
                        <system value="http://snomed.info/sct"/>
                        <code value="751441000000107"/>
                        <display value="Automated oto-acoustic emission test (procedure)"/>
                    </coding>
                </code>
                <subject>
                    <reference value="urn:uuid:5d5845f3-398f-474b-af59-14882fc7b0ca"/>
                </subject>
                <context>
                    <reference value="urn:uuid:12779557-9033-4213-876f-69a670cdf35d"/>
                </context>
                <performedDateTime value="2017-10-31T09:15:00+00:00"/>
                <performer>
                    <actor>
                        <reference value="urn:uuid:285e33ce-918f-406b-b971-f253fe53160e"/>
                    </actor>
                </performer>
                <outcome>
                    <coding>
                        <system value="http://snomed.info/sct"/>
                        <code value="1085501000000100"/>
                        <display value="Automated oto-acoustic emission test right ear clear response"/>
                    </coding>
                </outcome>
            </Procedure>
        </resource>
    </entry>
    <!--AOAE - Left Ear-->
    <entry>
        <fullUrl value="urn:uuid:e49ffe16-80f1-11e8-adc0-fa7ae01bbebc"/>
        <resource>
            <Procedure>
                <id value="e49ffe16-80f1-11e8-adc0-fa7ae01bbebc"/>
                <meta>
                    <profile value="https://fhir.nhs.uk/STU3/StructureDefinition/CareConnect-DCH-AOAEHearingTest-Procedure-1"/>
                </meta>
                <status value="completed"/>
                <code>
                    <coding>
                        <system value="http://snomed.info/sct"/>
                        <code value="751441000000107"/>
                        <display value="Automated oto-acoustic emission test (procedure)"/>
                    </coding>
                </code>
                <subject>
                    <reference value="urn:uuid:5d5845f3-398f-474b-af59-14882fc7b0ca"/>
                </subject>
                <context>
                    <reference value="urn:uuid:12779557-9033-4213-876f-69a670cdf35d"/>
                </context>
                <performedDateTime value="2017-10-31T09:15:00+00:00"/>
                <performer>
                    <actor>
                        <reference value="urn:uuid:285e33ce-918f-406b-b971-f253fe53160e"/>
                    </actor>
                </performer>
                <outcome>
                    <coding>
                        <system value="http://snomed.info/sct"/>
                        <code value="1085491000000106"/>
                        <display value="Automated oto-acoustic emission test left ear clear response"/>
                    </coding>
                </outcome>
            </Procedure>
        </resource>
    </entry>
    <!--Newborn Hearing Summary-->
    <entry>
        <fullUrl value="urn:uuid:e49fff88-80f1-11e8-adc0-fa7ae01bbebc"/>
        <resource>
            <Observation>
                <id value="e49fff88-80f1-11e8-adc0-fa7ae01bbebc"/>
                <meta>
                    <profile value="https://fhir.nhs.uk/STU3/StructureDefinition/CareConnect-DCH-HearingScreeningSummaryOutcome-Observation-1"/>
                </meta>
                <status value="final"/>
                <code>
                    <coding>
                        <system value="http://snomed.info/sct"/>
                        <code value="276771000000107"/>
                        <display value="Newborn hearing screening programme outcome (situation)"/>
                    </coding>
                </code>
                <subject>
                    <reference value="urn:uuid:5d5845f3-398f-474b-af59-14882fc7b0ca"/>
                </subject>
                <context>
                    <reference value="urn:uuid:12779557-9033-4213-876f-69a670cdf35d"/>
                </context>
                <effectiveDateTime value="2017-10-31T09:30:00+00:00"/>
                <performer>
                    <reference value="urn:uuid:285e33ce-918f-406b-b971-f253fe53160e"/>
                </performer>
                <valueCodeableConcept>
                    <coding>
                        <system value="http://snomed.info/sct"/>
                        <code value="276781000000109"/>
                        <display value="Newborn hearing screening programme completed, clear response no follow-up required"/>
                    </coding>
                </valueCodeableConcept>
            </Observation>
        </resource>
    </entry>
    <!--Practitioner-->
    <entry>
        <fullUrl value="urn:uuid:285e33ce-918f-406b-b971-f253fe53160e"/>
        <resource>
            <Practitioner>
                <id value="285e33ce-918f-406b-b971-f253fe53160e"/>
                <meta>
                    <profile value="https://fhir.nhs.uk/STU3/StructureDefinition/CareConnect-DCH-Practitioner-1"/>
                </meta>
                <identifier>
                    <system value="https://fhir.nhs.uk/Id/sds-role-profile-id"/>
                    <value value="PT2468"/>
                </identifier>
                <name>
                    <family value="EMMANUEL"/>
                    <given value="Gladys"/>
                    <prefix value="Dr."/>
                </name>
            </Practitioner>
        </resource>
    </entry>
    <!--Practitioner Role-->
    <entry>
        <fullUrl value="urn:uuid:b7e3cc3a-9120-49fe-801c-2793b80ca922"/>
        <resource>
            <PractitionerRole>
                <id value="b7e3cc3a-9120-49fe-801c-2793b80ca922"/>
                <meta>
                    <profile value="https://fhir.nhs.uk/STU3/StructureDefinition/CareConnect-DCH-PractitionerRole-1"/>
                </meta>
                <identifier>
                    <system value="https://fhir.nhs.uk/Id/sds-role-profile-id"/>
                    <value value="PT2468"/>
                </identifier>
                <practitioner>
                    <reference value="urn:uuid:285e33ce-918f-406b-b971-f253fe53160e"/>
                </practitioner>
                <organization>
                    <reference value="urn:uuid:e3177167-40fc-4f1a-80f2-a2f17f18fde7"/>
                </organization>
            </PractitionerRole>
        </resource>
    </entry>
    <!--Location where event took place-->
    <entry>
        <fullUrl value="urn:uuid:e3177167-40fc-4f1a-80f2-a2f17f18fde7"/>
        <resource>
            <Location>
                <id value="e3177167-40fc-4f1a-80f2-a2f17f18fde7"/>
                <meta>
                    <profile value="https://fhir.hl7.org.uk/STU3/StructureDefinition/CareConnect-Location-1"/>
                </meta>
                <identifier>
                    <system value="https://fhir.nhs.uk/Id/ods-site-code"/>
                    <value value="A83627"/>
                </identifier>
                <name value="SILVERDALE FAMILY PRACTICE"/>
            </Location>
        </resource>
    </entry>
</Bundle>